# Earth Spectrum
# source: Compiled telescope observations
# description: Earth reflection spectrum from multiple missions
# references: Karkoschka 1994; Pollack et al.; mission data
# resolution: ~5.0 nm
# object: Earth
# observation_type: Disk-integrated reflected sunlight
# instruments: Ground & space-based telescopes
# missions: MODIS, SCIAMACHY, multiple satellites
# data_points: 440
#
Wavelength(nm),Flux(W/mÂ²/nm)
300.000,6.043015e-03
305.011,6.393102e-03
310.023,6.712409e-03
315.034,7.088476e-03
320.046,7.436289e-03
325.057,7.658258e-03
330.068,7.939785e-03
335.080,8.353889e-03
340.091,8.610515e-03
345.103,8.933436e-03
350.114,9.228469e-03
355.125,9.608896e-03
360.137,9.774601e-03
365.148,1.009070e-02
370.159,1.058716e-02
375.171,1.077179e-02
380.182,1.095072e-02
385.194,1.130053e-02
390.205,1.144072e-02
395.216,1.196949e-02
400.228,1.232743e-02
405.239,1.240005e-02
410.251,1.274203e-02
415.262,1.312456e-02
420.273,1.360970e-02
425.285,1.381364e-02
430.296,1.410054e-02
435.308,1.425430e-02
440.319,1.456730e-02
445.330,1.435761e-02
450.342,1.480720e-02
455.353,1.471194e-02
460.364,1.454192e-02
465.376,1.515096e-02
470.387,1.459665e-02
475.399,1.460634e-02
480.410,1.436595e-02
485.421,1.438983e-02
490.433,1.405934e-02
495.444,1.410531e-02
500.456,1.391577e-02
505.467,1.374372e-02
510.478,1.386468e-02
515.490,1.327675e-02
520.501,1.346605e-02
525.513,1.332779e-02
530.524,1.340977e-02
535.535,1.305439e-02
540.547,1.323732e-02
545.558,1.293743e-02
550.569,1.324383e-02
555.581,1.319494e-02
560.592,1.297465e-02
565.604,1.277920e-02
570.615,1.272571e-02
575.626,1.262489e-02
580.638,1.276003e-02
585.649,1.256893e-02
590.661,1.241588e-02
595.672,1.248834e-02
600.683,1.242390e-02
605.695,1.217648e-02
610.706,1.200160e-02
615.718,1.196903e-02
620.729,1.208342e-02
625.740,1.206262e-02
630.752,1.162644e-02
635.763,1.175869e-02
640.774,1.146223e-02
645.786,1.133847e-02
650.797,1.142664e-02
655.809,1.137569e-02
660.820,1.124122e-02
665.831,1.142692e-02
670.843,1.116006e-02
675.854,1.122589e-02
680.866,1.061871e-02
685.877,8.380998e-03
690.888,9.592380e-03
695.900,1.106284e-02
700.911,1.108943e-02
705.923,1.123051e-02
710.934,1.140114e-02
715.945,1.108679e-02
720.957,1.123454e-02
725.968,1.136625e-02
730.979,1.117459e-02
735.991,1.129577e-02
741.002,1.148483e-02
746.014,1.145190e-02
751.025,1.122036e-02
756.036,9.373595e-03
761.048,7.536319e-03
766.059,1.017736e-02
771.071,1.097848e-02
776.082,1.098780e-02
781.093,1.085616e-02
786.105,1.089158e-02
791.116,1.074400e-02
796.128,1.077611e-02
801.139,1.053210e-02
806.150,1.049494e-02
811.162,1.023805e-02
816.173,1.011926e-02
821.185,1.018605e-02
826.196,1.002794e-02
831.207,9.872977e-03
836.219,9.712115e-03
841.230,9.676501e-03
846.241,9.654911e-03
851.253,9.474782e-03
856.264,9.461820e-03
861.276,9.203108e-03
866.287,9.141221e-03
871.298,9.151609e-03
876.310,8.903986e-03
881.321,8.684112e-03
886.333,8.601694e-03
891.344,8.488405e-03
896.355,8.123073e-03
901.367,7.614860e-03
906.378,7.290326e-03
911.390,6.615057e-03
916.401,6.055146e-03
921.412,5.288465e-03
926.424,4.748492e-03
931.435,4.245362e-03
936.446,3.917061e-03
941.458,3.859644e-03
946.469,3.989360e-03
951.481,4.274695e-03
956.492,4.717983e-03
961.503,5.206609e-03
966.515,5.587003e-03
971.526,6.034561e-03
976.538,6.380490e-03
981.549,6.427516e-03
986.560,6.667285e-03
991.572,6.773551e-03
996.583,6.743899e-03
1001.595,6.696848e-03
1006.606,6.654622e-03
1011.617,6.549145e-03
1016.629,6.408854e-03
1021.640,6.471951e-03
1026.651,6.346553e-03
1031.663,6.276902e-03
1036.674,6.309322e-03
1041.686,6.133997e-03
1046.697,6.139995e-03
1051.708,5.927841e-03
1056.720,5.905962e-03
1061.731,5.727517e-03
1066.743,5.541749e-03
1071.754,5.427098e-03
1076.765,5.102454e-03
1081.777,4.931219e-03
1086.788,4.565943e-03
1091.800,4.281023e-03
1096.811,3.836451e-03
1101.822,3.532351e-03
1106.834,3.215353e-03
1111.845,2.899136e-03
1116.856,2.608817e-03
1121.868,2.424219e-03
1126.879,2.329746e-03
1131.891,2.295416e-03
1136.902,2.280950e-03
1141.913,2.444492e-03
1146.925,2.610936e-03
1151.936,2.844045e-03
1156.948,3.098465e-03
1161.959,3.312283e-03
1166.970,3.515165e-03
1171.982,3.788690e-03
1176.993,3.947952e-03
1182.005,4.041466e-03
1187.016,4.096769e-03
1192.027,4.186914e-03
1197.039,4.138406e-03
1202.050,4.239094e-03
1207.062,4.167053e-03
1212.073,4.314125e-03
1217.084,4.177783e-03
1222.096,4.107909e-03
1227.107,4.036411e-03
1232.118,4.025513e-03
1237.130,3.979389e-03
1242.141,3.961077e-03
1247.153,3.920803e-03
1252.164,3.870885e-03
1257.175,3.852533e-03
1262.187,3.712558e-03
1267.198,3.710464e-03
1272.210,3.673014e-03
1277.221,3.606795e-03
1282.232,3.617404e-03
1287.244,3.592936e-03
1292.255,3.488470e-03
1297.267,3.447741e-03
1302.278,3.336487e-03
1307.289,3.328008e-03
1312.301,3.316691e-03
1317.312,3.248037e-03
1322.323,3.149558e-03
1327.335,3.032992e-03
1332.346,2.991574e-03
1337.358,2.820781e-03
1342.369,2.710753e-03
1347.380,2.457137e-03
1352.392,2.330662e-03
1357.403,2.176494e-03
1362.415,2.010635e-03
1367.426,1.843710e-03
1372.437,1.667047e-03
1377.449,1.533404e-03
1382.460,1.373102e-03
1387.472,1.272559e-03
1392.483,1.206110e-03
1397.494,1.160080e-03
1402.506,1.146013e-03
1407.517,1.162977e-03
1412.528,1.178720e-03
1417.540,1.289279e-03
1422.551,1.377996e-03
1427.563,1.481796e-03
1432.574,1.622578e-03
1437.585,1.705070e-03
1442.597,1.842308e-03
1447.608,1.927027e-03
1452.620,2.026277e-03
1457.631,2.096420e-03
1462.642,2.184763e-03
1467.654,2.245525e-03
1472.665,2.301947e-03
1477.677,2.355375e-03
1482.688,2.316354e-03
1487.699,2.313773e-03
1492.711,2.316877e-03
1497.722,2.240113e-03
1502.733,2.292979e-03
1507.745,2.260881e-03
1512.756,2.232629e-03
1517.768,2.242660e-03
1522.779,2.196541e-03
1527.790,2.204789e-03
1532.802,2.172571e-03
1537.813,2.143714e-03
1542.825,2.149822e-03
1547.836,2.116473e-03
1552.847,2.093839e-03
1557.859,2.022337e-03
1562.870,2.069610e-03
1567.882,2.014326e-03
1572.893,1.978648e-03
1577.904,2.006942e-03
1582.916,1.953556e-03
1587.927,1.994393e-03
1592.938,1.914999e-03
1597.950,1.932079e-03
1602.961,1.895844e-03
1607.973,1.864987e-03
1612.984,1.868059e-03
1617.995,1.827275e-03
1623.007,1.815030e-03
1628.018,1.804434e-03
1633.030,1.814465e-03
1638.041,1.787542e-03
1643.052,1.734950e-03
1648.064,1.746858e-03
1653.075,1.745508e-03
1658.087,1.679569e-03
1663.098,1.673420e-03
1668.109,1.684834e-03
1673.121,1.668869e-03
1678.132,1.634769e-03
1683.144,1.663368e-03
1688.155,1.605336e-03
1693.166,1.618000e-03
1698.178,1.598446e-03
1703.189,1.542353e-03
1708.200,1.583460e-03
1713.212,1.527252e-03
1718.223,1.505551e-03
1723.235,1.485417e-03
1728.246,1.513624e-03
1733.257,1.474083e-03
1738.269,1.487917e-03
1743.280,1.459984e-03
1748.292,1.437137e-03
1753.303,1.422422e-03
1758.314,1.419147e-03
1763.326,1.366696e-03
1768.337,1.352094e-03
1773.349,1.333135e-03
1778.360,1.298890e-03
1783.371,1.244272e-03
1788.383,1.232129e-03
1793.394,1.166405e-03
1798.405,1.130401e-03
1803.417,1.048554e-03
1808.428,1.007072e-03
1813.440,9.456047e-04
1818.451,8.855810e-04
1823.462,8.225345e-04
1828.474,7.559897e-04
1833.485,6.889381e-04
1838.497,6.250359e-04
1843.508,5.636435e-04
1848.519,5.186759e-04
1853.531,4.786278e-04
1858.542,4.469345e-04
1863.554,4.235345e-04
1868.565,4.084190e-04
1873.576,4.103641e-04
1878.588,4.129933e-04
1883.599,4.283316e-04
1888.610,4.629176e-04
1893.622,5.001340e-04
1898.633,5.395601e-04
1903.645,5.862292e-04
1908.656,6.249118e-04
1913.667,6.789618e-04
1918.679,7.134901e-04
1923.690,7.743409e-04
1928.702,7.916425e-04
1933.713,8.446796e-04
1938.724,8.549139e-04
1943.736,8.831590e-04
1948.747,9.080152e-04
1953.759,9.296104e-04
1958.770,9.366787e-04
1963.781,9.482363e-04
1968.793,9.556501e-04
1973.804,9.755131e-04
1978.815,9.695456e-04
1983.827,9.622730e-04
1988.838,9.525035e-04
1993.850,9.378254e-04
1998.861,9.464564e-04
2003.872,9.504413e-04
2008.884,9.305411e-04
2013.895,9.358138e-04
2018.907,9.228677e-04
2023.918,9.119074e-04
2028.929,9.011907e-04
2033.941,8.951055e-04
2038.952,8.862516e-04
2043.964,8.600844e-04
2048.975,8.711171e-04
2053.986,8.649366e-04
2058.998,8.546930e-04
2064.009,8.615506e-04
2069.021,8.421043e-04
2074.032,8.299750e-04
2079.043,8.132552e-04
2084.055,8.260478e-04
2089.066,8.348428e-04
2094.077,8.156778e-04
2099.089,8.206564e-04
2104.100,8.035626e-04
2109.112,7.879465e-04
2114.123,7.871549e-04
2119.134,7.915146e-04
2124.146,7.646895e-04
2129.157,7.757602e-04
2134.169,7.636122e-04
2139.180,7.716944e-04
2144.191,7.598673e-04
2149.203,7.357070e-04
2154.214,7.297733e-04
2159.226,7.344889e-04
2164.237,7.296324e-04
2169.248,7.345974e-04
2174.260,7.125454e-04
2179.271,7.129893e-04
2184.282,7.058435e-04
2189.294,7.052150e-04
2194.305,6.897502e-04
2199.317,6.899874e-04
2204.328,6.786442e-04
2209.339,6.751888e-04
2214.351,6.786078e-04
2219.362,6.663140e-04
2224.374,6.594564e-04
2229.385,6.659592e-04
2234.396,6.490414e-04
2239.408,6.453828e-04
2244.419,6.474382e-04
2249.431,6.299155e-04
2254.442,6.332711e-04
2259.453,6.397945e-04
2264.465,6.316175e-04
2269.476,6.252603e-04
2274.487,6.196489e-04
2279.499,6.152427e-04
2284.510,5.979844e-04
2289.522,5.990434e-04
2294.533,5.990130e-04
2299.544,6.015245e-04
2304.556,5.884800e-04
2309.567,5.923882e-04
2314.579,5.855718e-04
2319.590,5.709169e-04
2324.601,5.739104e-04
2329.613,5.748884e-04
2334.624,5.624625e-04
2339.636,5.614334e-04
2344.647,5.530117e-04
2349.658,5.667746e-04
2354.670,5.499716e-04
2359.681,5.469226e-04
2364.692,5.466305e-04
2369.704,5.336656e-04
2374.715,5.366974e-04
2379.727,5.325494e-04
2384.738,5.259260e-04
2389.749,5.231548e-04
2394.761,5.131489e-04
2399.772,5.204815e-04
2404.784,5.195252e-04
2409.795,5.051157e-04
2414.806,5.034055e-04
2419.818,4.945354e-04
2424.829,4.916382e-04
2429.841,4.965619e-04
2434.852,5.014202e-04
2439.863,4.834854e-04
2444.875,4.793357e-04
2449.886,4.902181e-04
2454.897,4.707340e-04
2459.909,4.716419e-04
2464.920,4.712661e-04
2469.932,4.682281e-04
2474.943,4.646805e-04
2479.954,4.635953e-04
2484.966,4.543815e-04
2489.977,4.511721e-04
2494.989,4.444084e-04
2500.000,4.394374e-04
